File: publish-src/test-pub/beam_data.csv
Time (sec),Extension (mm),Load (N)
0.00000,46.17077,-0.03876
0.30000,46.17077,-0.03848
0.60000,46.17062,-0.04604
0.90000,46.16984,-0.06532
1.20000,46.16609,-0.11914
1.50000,46.13062,-0.70393
1.80000,46.05781,-2.16194
2.10000,45.97843,-4.12411
2.40000,45.94656,-5.00079
2.70000,45.94577,-4.93818
3.00000,45.94562,-4.91023
3.30000,45.94468,-4.93110
3.60000,45.93109,-5.34115
3.90000,45.89780,-6.96990
4.20000,45.88796,-7.70084
4.50000,45.88781,-7.62164
4.80000,45.88718,-7.61454
5.10000,45.88202,-8.00895
5.40000,45.86734,-9.36385
5.70000,45.86468,-9.52207
6.00000,45.86218,-9.67834
6.30000,45.85562,-10.23592
6.60000,45.84187,-11.41478
6.90000,45.83609,-11.95709
7.20000,45.83562,-11.89127
7.50000,45.83390,-11.99377
7.80000,45.82781,-12.56124
8.10000,45.81312,-13.87414
8.40000,45.80640,-14.50530
8.70000,45.80593,-14.43962
9.00000,45.80421,-14.53785
9.30000,45.79734,-15.19378
9.60000,45.78718,-16.25737
9.90000,45.78312,-16.62756
10.20000,45.78077,-16.79477
10.50000,45.77609,-17.21242
10.80000,45.76937,-17.87858
11.10000,45.75812,-19.04572
11.40000,45.75499,-19.31006
11.70000,45.75390,-19.30746
12.00000,45.75093,-19.54963
12.30000,45.74515,-20.15181
12.60000,45.73702,-21.02259
12.90000,45.72780,-22.27103
13.20000,45.72718,-22.21346
13.50000,45.72671,-22.19669
13.80000,45.72343,-22.63118
14.10000,45.71890,-23.38929
14.40000,45.71593,-23.87813
14.70000,45.71249,-24.51284
15.00000,45.70952,-25.06342
15.30000,45.70687,-25.54385
15.60000,45.70421,-26.03444
15.90000,45.70156,-26.53426
16.20000,45.69921,-26.98246
16.50000,45.69703,-27.43801
16.80000,45.69453,-27.89485
17.10000,45.69171,-28.43599
17.40000,45.68952,-28.89241
17.70000,45.68718,-29.33285
18.00000,45.68468,-29.98518
18.30000,45.68218,-30.51941
18.60000,45.67968,-31.07075
18.90000,45.67734,-31.60585
19.20000,45.67531,-32.00544
19.50000,45.67280,-32.57495
19.80000,45.67093,-33.02617
20.10000,45.66937,-33.40424
20.40000,45.66749,-33.84069
20.70000,45.66531,-34.35328
21.00000,45.66327,-34.87514
21.30000,45.66124,-35.37602
21.60000,45.65905,-35.92863
21.90000,45.65702,-36.48107
22.20000,45.65484,-37.02859
22.50000,45.65265,-37.60018
22.80000,45.65062,-38.10729
23.10000,45.64874,-38.58942
23.40000,45.64703,-39.01548
23.70000,45.64515,-39.51681
24.00000,45.64327,-40.01654
24.30000,45.64156,-40.50289
24.60000,45.63999,-40.94179
24.90000,45.63827,-41.41851
25.20000,45.63656,-41.90085
25.50000,45.63484,-42.38651
25.80000,45.63312,-42.90087
26.10000,45.63140,-43.39213
26.40000,45.62968,-43.92861
26.70000,45.62812,-44.40890
27.00000,45.62640,-44.91594
27.30000,45.62468,-45.47320
27.60000,45.62296,-45.98666
27.90000,45.62109,-46.56811
28.20000,45.61968,-47.00528
28.50000,45.61796,-47.52139
28.80000,45.61624,-48.05269
29.10000,45.61484,-48.53079
29.40000,45.61343,-48.96347
29.70000,45.61171,-49.47154
30.00000,45.61015,-49.95469
30.30000,45.60874,-50.42021
30.60000,45.60718,-50.92525
30.90000,45.60562,-51.45185
31.20000,45.60406,-51.92663
31.50000,45.60249,-52.44274
31.80000,45.60078,-52.99042
32.10000,45.59905,-53.53473
32.40000,45.59765,-54.00008
32.70000,45.59609,-54.52213
33.00000,45.59437,-55.08117
33.30000,45.59296,-55.57816
33.60000,45.59140,-56.05813
33.90000,45.59015,-56.50352
34.20000,45.58859,-57.04942
34.50000,45.58718,-57.52863
34.80000,45.58593,-57.91818
35.10000,45.58453,-58.40494
35.40000,45.58312,-58.91961
35.70000,45.58171,-59.39455
36.00000,45.58031,-59.89719
36.30000,45.57890,-60.39105
36.60000,45.57749,-60.88876
36.90000,45.57593,-61.41556
37.20000,45.57452,-61.92025
37.50000,45.57312,-62.42245
37.80000,45.57155,-62.95762
38.10000,45.56999,-63.49387
38.40000,45.56859,-63.99994
38.70000,45.56702,-64.57686
39.00000,45.56546,-65.10949
39.30000,45.56421,-65.57045
39.60000,45.56281,-65.99677
39.90000,45.56140,-66.54465
40.20000,45.55984,-67.07514
40.50000,45.55859,-67.52484
40.80000,45.55734,-67.95657
41.10000,45.55593,-68.45312
41.40000,45.55453,-68.93947
41.70000,45.55327,-69.39566
42.00000,45.55187,-69.92134
42.30000,45.55046,-70.43075
42.60000,45.54906,-70.92752
42.90000,45.54765,-71.42691
43.20000,45.54624,-71.91837
43.50000,45.54484,-72.43444
43.80000,45.54359,-72.93622
44.10000,45.54218,-73.43356
44.40000,45.54078,-73.96804
44.70000,45.53921,-74.52097
45.00000,45.53781,-75.08136
45.30000,45.53656,-75.53415
45.60000,45.53531,-75.98760
45.90000,45.53374,-76.51325
46.20000,45.53234,-77.04277
46.50000,45.53109,-77.50685
46.80000,45.52968,-77.99456
47.10000,45.52843,-78.46552
47.40000,45.52718,-78.97484
47.70000,45.52577,-79.45941
48.00000,45.52452,-79.91920
48.30000,45.52312,-80.41981
48.60000,45.52171,-80.94927
48.90000,45.52031,-81.43965
49.20000,45.51905,-81.92591
49.50000,45.51749,-82.43605
49.80000,45.51609,-82.97876
50.10000,45.51484,-83.46142
50.40000,45.51343,-83.99152
50.70000,45.51202,-84.48824
51.00000,45.51062,-84.99760
51.30000,45.50906,-85.59891
51.60000,45.50781,-86.08954
51.90000,45.50656,-86.47911
52.20000,45.50515,-87.05704
52.50000,45.50390,-87.50911
52.80000,45.50280,-87.96574
53.10000,45.50140,-88.45451
53.40000,45.50015,-88.94593
53.70000,45.49890,-89.41708
54.00000,45.49765,-89.88034
54.30000,45.49624,-90.40127
54.60000,45.49499,-90.90824
54.90000,45.49359,-91.39466
55.20000,45.49234,-91.89373
55.50000,45.49093,-92.42917
55.80000,45.48952,-92.95572
56.10000,45.48828,-93.42767
56.40000,45.48671,-93.98318
56.70000,45.48531,-94.51263
57.00000,45.48405,-95.02324
57.30000,45.48249,-95.55328
57.60000,45.48109,-96.10268
57.90000,45.47984,-96.56611
58.20000,45.47859,-97.02682
58.50000,45.47734,-97.53180
58.80000,45.47593,-97.98744
59.10000,45.47453,-98.54579
59.40000,45.47327,-99.03997
59.70000,45.47203,-99.47103
60.00000,45.47077,-99.93114
60.30000,45.46953,-100.4
60.60000,45.46812,-100.926
60.90000,45.46671,-101.469
61.20000,45.46546,-101.916
61.50000,45.46421,-102.432
61.80000,45.46296,-102.903
62.10000,45.46171,-103.382
62.40000,45.46031,-103.883
62.70000,45.45890,-104.427
63.00000,45.45749,-104.936
63.30000,45.45624,-105.443
63.60000,45.45484,-105.96
63.90000,45.45343,-106.551
64.20000,45.45218,-107.046
64.50000,45.45093,-107.519
64.80000,45.44953,-107.993
65.10001,45.44812,-108.591
65.40000,45.44687,-109.058
65.70001,45.44562,-109.526
66.00000,45.44421,-109.999
66.30000,45.44296,-110.48
66.60001,45.44171,-110.971
66.90000,45.44031,-111.492
67.20001,45.43921,-111.947
67.50000,45.43781,-112.434
67.80000,45.43640,-112.949
68.10001,45.43515,-113.449
68.40000,45.43390,-113.952
68.70001,45.43249,-114.484
69.00000,45.43109,-114.966
69.30000,45.42984,-115.48
69.60001,45.42843,-115.976
69.90000,45.42718,-116.499
70.20001,45.42577,-116.98
70.50000,45.42452,-117.525
70.80000,45.42312,-118.071
71.10001,45.42187,-118.523
71.40000,45.42062,-118.992
71.70001,45.41937,-119.474
72.00000,45.41812,-119.93
72.30000,45.41687,-120.446
72.60001,45.41546,-120.975
72.90000,45.41437,-121.439
73.20001,45.41312,-121.917
73.50000,45.41187,-122.427
73.80000,45.41046,-122.934
74.10001,45.40921,-123.429
74.40000,45.40781,-123.936
74.70001,45.40656,-124.454
75.00000,45.40531,-124.955
75.30000,45.40390,-125.46
75.60001,45.40265,-125.98
75.90000,45.40124,-126.488
76.20001,45.39999,-126.994
76.50000,45.39859,-127.545
76.80000,45.39734,-128.052
77.10001,45.39593,-128.564
77.40000,45.39452,-129.084
77.70001,45.39343,-129.509
78.00000,45.39218,-130.005
78.30000,45.39062,-130.613
78.60001,45.38953,-131.034
78.90000,45.38843,-131.455
79.20001,45.38718,-131.942
79.50000,45.38577,-132.467
79.80000,45.38453,-132.948
80.10001,45.38327,-133.42
80.40000,45.38202,-133.902
80.70001,45.38077,-134.387
81.00001,45.37952,-134.893
81.30000,45.37828,-135.389
81.60001,45.37702,-135.871
81.90000,45.37578,-136.405
82.20001,45.37437,-136.958
82.50001,45.37312,-137.454
82.80000,45.37187,-137.957
83.10001,45.37046,-138.487
83.40000,45.36921,-139.029
83.70001,45.36781,-139.568
84.00001,45.36656,-140.055
84.30000,45.36531,-140.535
84.60001,45.36390,-141.055
84.90000,45.36280,-141.496
85.20001,45.36156,-142.001
85.50001,45.36015,-142.567
85.80000,45.35906,-142.982
86.10001,45.35780,-143.469
86.40000,45.35640,-143.988
86.70001,45.35515,-144.495
87.00001,45.35406,-144.936
87.30000,45.35281,-145.434
87.60001,45.35140,-145.964
87.90000,45.35015,-146.447
88.20001,45.34890,-146.945
88.50001,45.34765,-147.398
88.80000,45.34640,-147.929
89.10001,45.34515,-148.433
89.40000,45.34390,-148.954
89.70001,45.34249,-149.503
90.00001,45.34109,-150.075
90.30000,45.33999,-150.535
90.60001,45.33874,-150.986
90.90000,45.33749,-151.512
91.20001,45.33624,-151.989
91.50001,45.33499,-152.493
91.80000,45.33374,-153.015
92.10001,45.33250,-153.511
92.40000,45.33140,-153.966
92.70001,45.33015,-154.467
93.00001,45.32906,-154.943
93.30000,45.32780,-155.428
93.60001,45.32656,-155.949
93.90000,45.32531,-156.429
94.20001,45.32406,-156.939
94.50001,45.32281,-157.455
94.80000,45.32155,-157.948
95.10001,45.32031,-158.432
95.40000,45.31905,-158.947
95.70001,45.31765,-159.505
96.00001,45.31640,-159.993
96.30000,45.31515,-160.509
96.60001,45.31390,-161.016
96.90000,45.31265,-161.539
97.20001,45.31124,-162.057
97.50001,45.30999,-162.593
97.80000,45.30874,-163.059
98.10001,45.30765,-163.535
98.40000,45.30640,-164.026
98.70001,45.30530,-164.481
99.00001,45.30406,-164.94
99.30000,45.30280,-165.498
99.60001,45.30156,-165.983
99.90000,45.30046,-166.45
100.2,45.29906,-166.972
100.5,45.29796,-167.441
100.8,45.29687,-167.898
101.1,45.29562,-168.403
101.4,45.29437,-168.925
101.7,45.29328,-169.401
102,45.29202,-169.895
102.3,45.29078,-170.418
102.6,45.28952,-170.931
102.9,45.28828,-171.444
103.2,45.28702,-171.975
103.5,45.28593,-172.462
103.8,45.28468,-172.971
104.1,45.28343,-173.519
104.4,45.28202,-174.072
104.7,45.28093,-174.531
105,45.27984,-174.978
105.3,45.27859,-175.55
105.6,45.27734,-176.083
105.9,45.27609,-176.573
106.2,45.27499,-176.999
106.5,45.27374,-177.509
106.8,45.27265,-178.019
107.1,45.27140,-178.505
107.4,45.27031,-178.952
107.7,45.26921,-179.441
108,45.26796,-179.952
108.3,45.26687,-180.457
108.6,45.26562,-180.951
108.9,45.26437,-181.434
109.2,45.26328,-181.923
109.5,45.26202,-182.422
109.8,45.26093,-182.948
110.1,45.25968,-183.461
110.4,45.25843,-184.01
110.7,45.25718,-184.532
111,45.25609,-184.992
111.3,45.25499,-185.478
111.6,45.25374,-186.008
111.9,45.25249,-186.515
112.2,45.25140,-187.016
112.5,45.25030,-187.512
112.8,45.24921,-188.004
113.1,45.24812,-188.489
113.4,45.24703,-188.959
113.7,45.24577,-189.468
114,45.24453,-189.984
114.3,45.24343,-190.474
114.6,45.24234,-190.96
114.9,45.24109,-191.458
115.2,45.23999,-191.93
115.5,45.23890,-192.44
115.8,45.23765,-192.933
116.1,45.23655,-193.449
116.4,45.23531,-193.948
116.7,45.23421,-194.455
117,45.23296,-194.979
117.3,45.23187,-195.485
117.6,45.23062,-195.988
117.9,45.22952,-196.494
118.2,45.22827,-197.058
118.5,45.22702,-197.55
118.8,45.22593,-198.033
119.1,45.22468,-198.553
119.4,45.22374,-199.012
119.7,45.22249,-199.489
120,45.22124,-200.042
120.3,45.22015,-200.54
120.6,45.21906,-200.992
120.9,45.21796,-201.494
121.2,45.21687,-201.987
121.5,45.21577,-202.464
121.8,45.21468,-202.955
122.1,45.21359,-203.427
122.4,45.21249,-203.91
122.7,45.21140,-204.385
123,45.21031,-204.887
123.3,45.20906,-205.396
123.6,45.20796,-205.902
123.9,45.20687,-206.414
124.2,45.20578,-206.898
124.5,45.20452,-207.428
124.8,45.20343,-207.961
125.1,45.20218,-208.477
125.4,45.20109,-208.985
125.7,45.19984,-209.539
126,45.19874,-210.033
126.3,45.19749,-210.535
126.6,45.19640,-211.052
126.9,45.19531,-211.542
127.2,45.19421,-212.055
127.5,45.19312,-212.513
127.8,45.19203,-213.004
128.1,45.19077,-213.517
128.4,45.18968,-214.039
128.7,45.18859,-214.51
129,45.18749,-214.986
129.3,45.18640,-215.481
129.6,45.18531,-215.953
129.9,45.18421,-216.451
130.2,45.18312,-216.954
130.5,45.18202,-217.425
130.8,45.18093,-217.913
131.1,45.17968,-218.418
131.4,45.17859,-218.86
131.7,45.17749,-219.419
132,45.17640,-219.924
132.3,45.17515,-220.446
132.6,45.17405,-220.987
132.9,45.17296,-221.503
133.2,45.17187,-221.992
133.5,45.17077,-222.5
133.8,45.16952,-223.023
134.1,45.16843,-223.493
134.4,45.16734,-224.001
134.7,45.16640,-224.454
135,45.16515,-225.037
135.3,45.16390,-225.551
135.6,45.16296,-225.995
135.9,45.16187,-226.494
136.2,45.16077,-226.967
136.5,45.15968,-227.472
136.8,45.15859,-227.973
137.1,45.15749,-228.45
137.4,45.15640,-228.948
137.7,45.15531,-229.442
138,45.15421,-229.947
138.3,45.15296,-230.469
138.6,45.15187,-230.958
138.9,45.15078,-231.458
139.2,45.14968,-231.982
139.5,45.14859,-232.477
139.8,45.14749,-232.962
140.1,45.14624,-233.499
140.4,45.14515,-234.007
140.7,45.14406,-234.496
141,45.14296,-235.03
141.3,45.14171,-235.555
141.6,45.14077,-236.024
141.9,45.13968,-236.528
142.2,45.13859,-237.031
142.5,45.13749,-237.514
142.8,45.13640,-237.988
143.1,45.13530,-238.502
143.4,45.13421,-238.989
143.7,45.13312,-239.469
144,45.13203,-239.987
144.3,45.13093,-240.495
144.6,45.12999,-240.948
144.9,45.12890,-241.434
145.2,45.12796,-241.906
145.5,45.12687,-242.405
145.8,45.12578,-242.921
146.1,45.12468,-243.402
146.4,45.12359,-243.91
146.7,45.12249,-244.405
147,45.12140,-244.926
147.3,45.12031,-245.444
147.6,45.11921,-245.952
147.9,45.11812,-246.442
148.2,45.11702,-246.972
148.5,45.11593,-247.464
148.8,45.11484,-247.985
149.1,45.11359,-248.52
149.4,45.11249,-249.044
149.7,45.11140,-249.526
150,45.11031,-250.053
150.3,45.10921,-250.523
150.6,45.10827,-251.022
150.9,45.10703,-251.548
151.2,45.10593,-252.082
151.5,45.10499,-252.505
151.8,45.10390,-252.988
152.1,45.10280,-253.492
152.4,45.10187,-253.965
152.7,45.10077,-254.454
153,45.09968,-254.944
153.3,45.09859,-255.453
153.6,45.09765,-255.93
153.9,45.09656,-256.413
154.2,45.09546,-256.936
154.5,45.09437,-257.407
154.8,45.09328,-257.921
155.1,45.09218,-258.441
155.4,45.09109,-258.952
155.7,45.08999,-259.476
156,45.08890,-259.959
156.3,45.08781,-260.462
156.6,45.08671,-260.981
156.9,45.08577,-261.482
157.2,45.08468,-262.003
157.5,45.08359,-262.512
157.8,45.08249,-263.009
158.1,45.08140,-263.516
158.4,45.08030,-264.033
158.7,45.07937,-264.474
159,45.07827,-264.984
159.3,45.07718,-265.504
159.6,45.07624,-265.988
159.9,45.07515,-266.478
160.2,45.07406,-267.001
160.5,45.07296,-267.469
160.8,45.07202,-267.937
161.1,45.07093,-268.454
161.4,45.06984,-268.957
161.7,45.06874,-269.449
162,45.06781,-269.937
162.3,45.06671,-270.433
162.6,45.06562,-270.938
162.9,45.06452,-271.45
163.2,45.06343,-271.981
163.5,45.06234,-272.469
163.8,45.06124,-272.964
164.1,45.06015,-273.48
164.4,45.05906,-273.978
164.7,45.05796,-274.498
165,45.05687,-275.037
165.3,45.05577,-275.522
165.6,45.05468,-276.026
165.9,45.05359,-276.531
166.2,45.05265,-276.951
166.5,45.05156,-277.504
166.8,45.05030,-278.037
167.1,45.04921,-278.545
167.4,45.04827,-278.998
167.7,45.04734,-279.487
168,45.04624,-279.955
168.3,45.04531,-280.435
168.6,45.04421,-280.955
168.9,45.04312,-281.425
169.2,45.04218,-281.888
169.5,45.04109,-282.413
169.8,45.03999,-282.938
170.1,45.03890,-283.431
170.4,45.03796,-283.938
170.7,45.03687,-284.426
171,45.03578,-284.922
171.3,45.03468,-285.447
171.6,45.03374,-285.958
171.9,45.03265,-286.472
172.2,45.03140,-286.985
172.5,45.03046,-287.487
172.8,45.02937,-288.023
173.1,45.02827,-288.529
173.4,45.02718,-289.042
173.7,45.02609,-289.53
174,45.02499,-290.036
174.3,45.02390,-290.552
174.6,45.02296,-291.003
174.9,45.02187,-291.487
175.2,45.02077,-292.002
175.5,45.01968,-292.523
175.8,45.01874,-292.988
176.1,45.01765,-293.502
176.4,45.01671,-293.957
176.7,45.01562,-294.455
177,45.01452,-294.976
177.3,45.01343,-295.464
177.6,45.01234,-295.94
177.9,45.01140,-296.441
178.2,45.01031,-296.94
178.5,45.00921,-297.422
178.8,45.00812,-297.939
179.1,45.00702,-298.453
179.4,45.00609,-298.952
179.7,45.00499,-299.465
180,45.00390,-299.931
180.3,45.00296,-300.432
180.6,45.00171,-300.978
180.9,45.00077,-301.477
181.2,44.99968,-301.978
181.5,44.99859,-302.503
181.8,44.99749,-303.039
182.1,44.99640,-303.543
182.4,44.99562,-303.955
182.7,44.99437,-304.468
183,44.99327,-305.024
183.3,44.99218,-305.527
183.6,44.99124,-305.993
183.9,44.99030,-306.462
184.2,44.98921,-306.961
184.5,44.98812,-307.484
184.8,44.98702,-307.976
185.1,44.98609,-308.448
185.4,44.98499,-308.959
185.7,44.98390,-309.459
186,44.98296,-309.925
186.3,44.98187,-310.452
186.6,44.98078,-310.945
186.9,44.97968,-311.45
187.2,44.97874,-311.96
187.5,44.97765,-312.469
187.8,44.97655,-312.974
188.1,44.97546,-313.493
188.4,44.97437,-314.01
188.7,44.97327,-314.506
189,44.97218,-315.009
189.3,44.97109,-315.528
189.6,44.97015,-316.034
189.9,44.96906,-316.511
190.2,44.96796,-317.016
190.5,44.96703,-317.526
190.8,44.96593,-317.998
191.1,44.96499,-318.455
191.4,44.96390,-319.009
191.7,44.96280,-319.491
192,44.96187,-319.955
192.3,44.96093,-320.438
192.6,44.95984,-320.921
192.9,44.95890,-321.422
193.2,44.95781,-321.933
193.5,44.95671,-322.423
193.8,44.95578,-322.91
194.1,44.95468,-323.421
194.4,44.95359,-323.945
194.7,44.95265,-324.429
195,44.95155,-324.933
195.3,44.95046,-325.456
195.6,44.94952,-325.919
195.9,44.94843,-326.421
196.2,44.94734,-326.992
196.5,44.94624,-327.504
196.8,44.94515,-327.983
197.1,44.94406,-328.519
197.4,44.94296,-329.056
197.7,44.94187,-329.553
198,44.94093,-330.053
198.3,44.93984,-330.562
198.6,44.93890,-331.028
198.9,44.93780,-331.473
199.2,44.93671,-332.027
199.5,44.93562,-332.565
199.8,44.93468,-333.031
200.1,44.93359,-333.495
200.4,44.93265,-333.965
200.7,44.93156,-334.488
201,44.93046,-334.973
201.3,44.92952,-335.431
201.6,44.92859,-335.933
201.9,44.92749,-336.429
202.2,44.92640,-336.922
202.5,44.92546,-337.428
202.8,44.92437,-337.922
203.1,44.92328,-338.44
203.4,44.92234,-338.944
203.7,44.92124,-339.433
204,44.92015,-339.95
204.3,44.91921,-340.455
204.6,44.91812,-340.919
204.9,44.91702,-341.483
205.2,44.91609,-341.977
205.5,44.91499,-342.479
205.8,44.91390,-343.021
206.1,44.91280,-343.531
206.4,44.91187,-343.994
206.7,44.91077,-344.484
207,44.90968,-345.015
207.3,44.90874,-345.456
207.6,44.90765,-346.024
207.9,44.90671,-346.5
208.2,44.90562,-346.998
208.5,44.90453,-347.494
208.8,44.90359,-347.934
209.1,44.90249,-348.466
209.4,44.90156,-348.982
209.7,44.90046,-349.453
210,44.89952,-349.935
210.3,44.89843,-350.458
210.6,44.89734,-350.952
210.9,44.89640,-351.445
211.2,44.89531,-351.962
211.5,44.89421,-352.461
211.8,44.89328,-352.937
212.1,44.89218,-353.462
212.4,44.89109,-353.962
212.7,44.88999,-354.477
213,44.88890,-354.98
213.3,44.88796,-355.504
213.6,44.88687,-356.001
213.9,44.88577,-356.501
214.2,44.88468,-357.042
214.5,44.88374,-357.542
214.8,44.88265,-358.02
215.1,44.88171,-358.434
215.4,44.88062,-358.979
215.7,44.87953,-359.504
216,44.87859,-360.015
216.3,44.87765,-360.461
216.6,44.87656,-360.938
216.9,44.87562,-361.443
217.2,44.87452,-361.958
217.5,44.87343,-362.443
217.8,44.87249,-362.916
218.1,44.87140,-363.432
218.4,44.87031,-363.951
218.7,44.86937,-364.42
219,44.86828,-364.94
219.3,44.86718,-365.46
219.6,44.86624,-365.946
219.9,44.86515,-366.431
220.2,44.86421,-366.969
220.5,44.86312,-367.471
220.8,44.86202,-367.996
221.1,44.86093,-368.505
221.4,44.85984,-369.026
221.7,44.85890,-369.514
222,44.85781,-370.04
222.3,44.85671,-370.556
222.6,44.85562,-371.045
222.9,44.85468,-371.553
223.2,44.85359,-372.011
223.5,44.85265,-372.499
223.8,44.85171,-372.967
224.1,44.85046,-373.494
224.4,44.84937,-374.066
224.7,44.84843,-374.514
225,44.84749,-374.97
225.3,44.84640,-375.47
225.6,44.84546,-375.932
225.9,44.84452,-376.409
226.2,44.84343,-376.939
226.5,44.84234,-377.445
226.8,44.84140,-377.937
227.1,44.84031,-378.418
227.4,44.83937,-378.922
227.7,44.83828,-379.415
228,44.83734,-379.895
228.3,44.83624,-380.415
228.6,44.83531,-380.919
228.9,44.83421,-381.423
229.2,44.83312,-381.962
229.5,44.83202,-382.446
229.8,44.83109,-382.948
230.1,44.82999,-383.498
230.4,44.82874,-384.068
230.7,44.82780,-384.537
231,44.82687,-385.013
231.3,44.82577,-385.463
231.6,44.82468,-385.984
231.9,44.82359,-386.583
232.2,44.82249,-387.06
232.5,44.82156,-387.512
232.8,44.82046,-388.027
233.1,44.81953,-388.514
233.4,44.81859,-388.974
233.7,44.81749,-389.475
234,44.81640,-390.017
234.3,44.81546,-390.476
234.6,44.81452,-390.946
234.9,44.81343,-391.467
235.2,44.81234,-391.959
235.5,44.81125,-392.463
235.8,44.81031,-392.956
236.1,44.80921,-393.445
236.4,44.80812,-393.956
236.7,44.80718,-394.446
237,44.80609,-394.965
237.3,44.80499,-395.483
237.6,44.80406,-395.971
237.9,44.80296,-396.472
238.2,44.80187,-396.971
238.5,44.80077,-397.508
238.8,44.79984,-398.026
239.1,44.79874,-398.524
239.4,44.79780,-398.992
239.7,44.79671,-399.493
240,44.79562,-400.012
240.3,44.79468,-400.498
240.6,44.79374,-400.934
240.9,44.79265,-401.439
241.2,44.79171,-401.963
241.5,44.79062,-402.472
241.8,44.78968,-402.95
242.1,44.78859,-403.436
242.4,44.78749,-403.966
242.7,44.78656,-404.449
243,44.78562,-404.943
243.3,44.78452,-405.44
243.6,44.78343,-405.947
243.9,44.78249,-406.454
244.2,44.78140,-406.965
244.5,44.78031,-407.481
244.8,44.77921,-407.989
245.1,44.77828,-408.459
245.4,44.77718,-408.974
245.7,44.77609,-409.501
246,44.77499,-409.99
246.3,44.77390,-410.505
246.6,44.77281,-411.032
246.9,44.77171,-411.561
247.2,44.77062,-412.071
247.5,44.76953,-412.568
247.8,44.76874,-412.961
248.1,44.76765,-413.489
248.4,44.76656,-414.057
248.7,44.76546,-414.541
249,44.76453,-414.98
249.3,44.76359,-415.463
249.6,44.76249,-415.981
249.9,44.76140,-416.445
250.2,44.76046,-416.946
250.5,44.75937,-417.438
250.8,44.75843,-417.916
251.1,44.75734,-418.452
251.4,44.75624,-418.941
251.7,44.75531,-419.395
252,44.75437,-419.882
252.3,44.75328,-420.411
252.6,44.75218,-420.92
252.9,44.75109,-421.421
253.2,44.74999,-421.945
253.5,44.74906,-422.452
253.8,44.74796,-422.962
254.1,44.74687,-423.462
254.4,44.74593,-423.983
254.7,44.74484,-424.508
255,44.74374,-425.021
255.3,44.74265,-425.55
255.6,44.74156,-426.034
255.9,44.74062,-426.529
256.2,44.73953,-427.026
256.5,44.73843,-427.536
256.8,44.73749,-427.968
257.1,44.73640,-428.496
257.4,44.73531,-429.062
257.7,44.73437,-429.511
258,44.73327,-429.972
258.3,44.73234,-430.494
258.6,44.73124,-430.983
258.9,44.73015,-431.477
259.2,44.72921,-431.955
259.5,44.72812,-432.451
259.8,44.72702,-432.97
260.1,44.72609,-433.456
260.4,44.72499,-433.951
260.7,44.72390,-434.444
261,44.72296,-434.913
261.3,44.72187,-435.443
261.6,44.72078,-435.953
261.9,44.71984,-436.445
262.2,44.71859,-436.985
262.5,44.71765,-437.498
262.8,44.71656,-438.024
263.1,44.71546,-438.534
263.4,44.71453,-438.982
263.7,44.71343,-439.463
264,44.71250,-439.97
264.3,44.71140,-440.456
264.6,44.71030,-441
264.9,44.70921,-441.512
265.2,44.70812,-442.043
265.5,44.70718,-442.489
265.8,44.70624,-442.964
266.1,44.70515,-443.492
266.4,44.70421,-443.957
266.7,44.70312,-444.456
267,44.70202,-444.962
267.3,44.70109,-445.432
267.6,44.69999,-445.935
267.9,44.69890,-446.449
268.2,44.69781,-446.971
268.5,44.69671,-447.47
268.8,44.69578,-447.929
269.1,44.69468,-448.461
269.4,44.69359,-449.006
269.7,44.69249,-449.506
270,44.69140,-449.988
270.3,44.69031,-450.515
270.6,44.68921,-451.015
270.9,44.68827,-451.499
271.2,44.68718,-452.015
271.5,44.68609,-452.538
271.8,44.68484,-453.057
272.1,44.68390,-453.538
272.4,44.68296,-453.994
272.7,44.68187,-454.493
273,44.68077,-454.994
273.3,44.67984,-455.423
273.6,44.67874,-455.943
273.9,44.67765,-456.507
274.2,44.67656,-456.979
274.5,44.67562,-457.447
274.8,44.67452,-457.935
275.1,44.67343,-458.446
275.4,44.67249,-458.907
275.7,44.67140,-459.393
276,44.67046,-459.901
276.3,44.66937,-460.409
276.6,44.66828,-460.915
276.9,44.66718,-461.432
277.2,44.66624,-461.917
277.5,44.66515,-462.433
277.8,44.66406,-462.94
278.1,44.66296,-463.47
278.4,44.66187,-463.974
278.7,44.66077,-464.473
279,44.65968,-465.006
279.3,44.65859,-465.541
279.6,44.65749,-466.051
279.9,44.65640,-466.561
280.2,44.65546,-466.969
280.5,44.65437,-467.516
280.8,44.65312,-468.101
281.1,44.65203,-468.585
281.4,44.65109,-469.047
281.7,44.65015,-469.51
282,44.64890,-470.04
282.3,44.64796,-470.502
282.6,44.64687,-471.001
282.9,44.64578,-471.498
283.2,44.64484,-471.959
283.5,44.64374,-472.453
283.8,44.64265,-472.95
284.1,44.64155,-473.446
284.4,44.64046,-473.958
284.7,44.63937,-474.433
285,44.63843,-474.933
285.3,44.63734,-475.446
285.6,44.63624,-475.968
285.9,44.63515,-476.474
286.2,44.63406,-476.961
286.5,44.63281,-477.507
286.8,44.63187,-478.011
287.1,44.63077,-478.446
287.4,44.62968,-478.968
287.7,44.62859,-479.512
288,44.62750,-480.014
288.3,44.62656,-480.473
288.6,44.62546,-480.977
288.9,44.62437,-481.489
289.2,44.62327,-481.971
289.5,44.62218,-482.422
289.8,44.62109,-482.963
290.1,44.61999,-483.435
290.4,44.61890,-483.971
290.7,44.61781,-484.444
291,44.61671,-484.959
291.3,44.61562,-485.451
291.6,44.61452,-485.933
291.9,44.61343,-486.462
292.2,44.61234,-486.959
292.5,44.61124,-487.459
292.8,44.61015,-487.965
293.1,44.60890,-488.464
293.4,44.60781,-488.987
293.7,44.60671,-489.497
294,44.60562,-490.009
294.3,44.60437,-490.512
294.6,44.60327,-491.023
294.9,44.60218,-491.543
295.2,44.60109,-492.035
295.5,44.59984,-492.53
295.8,44.59890,-492.995
296.1,44.59765,-493.475
296.4,44.59640,-494.047
296.7,44.59530,-494.546
297,44.59437,-494.985
297.3,44.59312,-495.482
297.6,44.59202,-495.984
297.9,44.59093,-496.464
298.2,44.58984,-496.921
298.5,44.58890,-497.383
298.8,44.58765,-497.911
299.1,44.58655,-498.394
299.4,44.58546,-498.883
299.7,44.58421,-499.408
300,44.58312,-499.921
300.3,44.58202,-500.41
300.6,44.58093,-500.929
300.9,44.57968,-501.437
301.2,44.57859,-501.977
301.5,44.57749,-502.462
301.8,44.57624,-502.992
302.1,44.57499,-503.547
302.4,44.57390,-504.034
302.7,44.57280,-504.541
303,44.57171,-505.058
303.3,44.57046,-505.549
303.6,44.56937,-506.053
303.9,44.56827,-506.537
304.2,44.56734,-506.971
304.5,44.56609,-507.521
304.8,44.56484,-508.084
305.1,44.56390,-508.514
305.4,44.56281,-508.995
305.7,44.56171,-509.507
306,44.56062,-509.952
306.3,44.55952,-510.459
306.6,44.55828,-510.962
306.9,44.55734,-511.453
307.2,44.55624,-511.938
307.5,44.55515,-512.425
307.8,44.55405,-512.915
308.1,44.55281,-513.428
308.4,44.55171,-513.923
308.7,44.55062,-514.442
309,44.54952,-514.973
309.3,44.54843,-515.476
309.6,44.54734,-515.969
309.9,44.54624,-516.446
310.2,44.54499,-516.988
310.5,44.54390,-517.483
310.8,44.54280,-517.986
311.1,44.54187,-518.409
311.4,44.54062,-518.977
311.7,44.53937,-519.531
312,44.53827,-520.026
312.3,44.53734,-520.494
312.6,44.53624,-520.957
312.9,44.53499,-521.458
313.2,44.53390,-521.982
313.5,44.53281,-522.469
313.8,44.53171,-522.933
314.1,44.53062,-523.449
314.4,44.52952,-523.954
314.7,44.52843,-524.448
315,44.52718,-524.942
315.3,44.52609,-525.47
315.6,44.52499,-525.962
315.9,44.52390,-526.464
316.2,44.52265,-526.969
316.5,44.52140,-527.5
316.8,44.52031,-528.045
317.1,44.51921,-528.518
317.4,44.51812,-529.027
317.7,44.51687,-529.561
318,44.51577,-530.05
318.3,44.51468,-530.536
318.6,44.51343,-531.038
318.9,44.51234,-531.507
319.2,44.51124,-531.994
319.5,44.51015,-532.472
319.8,44.50906,-532.961
320.1,44.50796,-533.471
320.4,44.50671,-533.971
320.7,44.50577,-534.435
321,44.50468,-534.897
321.3,44.50359,-535.411
321.6,44.50249,-535.896
321.9,44.50125,-536.401
322.2,44.50015,-536.928
322.5,44.49905,-537.433
322.8,44.49796,-537.899
323.1,44.49671,-538.432
323.4,44.49562,-538.934
323.7,44.49452,-539.456
324,44.49327,-539.949
324.3,44.49218,-540.476
324.6,44.49109,-540.985
324.9,44.48984,-541.524
325.2,44.48859,-542.043
325.5,44.48749,-542.532
325.8,44.48640,-543.025
326.1,44.48515,-543.578
326.4,44.48421,-544.008
326.7,44.48296,-544.53
327,44.48171,-545.068
327.3,44.48062,-545.588
327.6,44.47952,-546.026
327.9,44.47843,-546.503
328.2,44.47734,-546.999
328.5,44.47624,-547.49
328.8,44.47515,-547.97
329.1,44.47405,-548.445
329.4,44.47281,-548.949
329.7,44.47171,-549.439
330,44.47062,-549.93
330.3,44.46952,-550.416
330.6,44.46843,-550.912
330.9,44.46718,-551.431
331.2,44.46609,-551.94
331.5,44.46484,-552.442
331.8,44.46374,-552.922
332.1,44.46265,-553.454
332.4,44.46140,-553.987
332.7,44.46030,-554.478
333,44.45906,-555
333.3,44.45796,-555.523
333.6,44.45687,-556.009
333.9,44.45562,-556.509
334.2,44.45468,-556.946
334.5,44.45343,-557.431
334.8,44.45234,-557.981
335.1,44.45109,-558.509
335.4,44.44999,-558.995
335.7,44.44890,-559.481
336,44.44781,-559.956
336.3,44.44655,-560.449
336.6,44.44546,-560.964
336.9,44.44421,-561.46
337.2,44.44312,-561.956
337.5,44.44202,-562.474
337.8,44.44078,-562.971
338.1,44.43968,-563.464
338.4,44.43843,-563.965
338.7,44.43734,-564.5
339,44.43609,-564.994
339.3,44.43499,-565.506
339.6,44.43374,-566
339.9,44.43249,-566.526
340.2,44.43140,-567.066
340.5,44.43015,-567.537
340.8,44.42906,-568.032
341.1,44.42796,-568.487
341.4,44.42687,-568.964
341.7,44.42562,-569.506
342,44.42437,-570.055
342.3,44.42327,-570.484
342.6,44.42218,-570.915
342.9,44.42109,-571.409
343.2,44.41984,-571.943
343.5,44.41874,-572.451
343.8,44.41765,-572.895
344.1,44.41655,-573.394
344.4,44.41531,-573.941
344.7,44.41405,-574.438
345,44.41296,-574.919
345.3,44.41187,-575.411
345.6,44.41062,-575.94
345.9,44.40937,-576.469
346.2,44.40827,-576.974
346.5,44.40702,-577.486
346.8,44.40577,-578.009
347.1,44.40468,-578.51
347.4,44.40343,-579.06
347.7,44.40218,-579.58
348,44.40109,-580.056
348.3,44.39984,-580.553
348.6,44.39874,-581.051
348.9,44.39765,-581.503
349.2,44.39656,-581.967
349.5,44.39515,-582.52
349.8,44.39406,-583.032
350.1,44.39281,-583.51
350.4,44.39171,-583.996
350.7,44.39062,-584.446
351,44.38937,-584.931
351.3,44.38828,-585.453
351.6,44.38702,-585.927
351.9,44.38593,-586.431
352.2,44.38468,-586.917
352.5,44.38359,-587.412
352.8,44.38234,-587.911
353.1,44.38124,-588.382
353.4,44.37999,-588.898
353.7,44.37874,-589.427
354,44.37749,-589.943
354.3,44.37624,-590.477
354.6,44.37515,-590.972
354.9,44.37390,-591.469
355.2,44.37265,-592.051
355.5,44.37140,-592.549
355.8,44.37046,-592.94
356.1,44.36921,-593.484
356.4,44.36781,-594.07
356.7,44.36656,-594.553
357,44.36546,-595.006
357.3,44.36437,-595.487
357.6,44.36312,-596.005
357.9,44.36202,-596.488
358.2,44.36078,-596.958
358.5,44.35952,-597.468
358.8,44.35843,-597.948
359.1,44.35718,-598.431
359.4,44.35593,-598.979
359.7,44.35468,-599.467
360,44.35359,-599.967
360.3,44.35218,-600.502
360.6,44.35109,-601.005
360.9,44.34984,-601.508
361.2,44.34859,-602.003
361.5,44.34734,-602.499
361.8,44.34624,-602.999
362.1,44.34484,-603.521
362.4,44.34359,-604.027
362.7,44.34249,-604.51
363,44.34124,-604.996
363.3,44.34031,-605.394
363.6,44.33890,-605.936
363.9,44.33765,-606.469
364.2,44.33656,-606.955
364.5,44.33546,-607.424
364.8,44.33421,-607.909
365.1,44.33296,-608.422
365.4,44.33171,-608.917
365.7,44.33062,-609.415
366,44.32937,-609.926
366.3,44.32812,-610.452
366.6,44.32687,-610.95
366.9,44.32578,-611.459
367.2,44.32452,-611.945
367.5,44.32327,-612.443
367.8,44.32203,-612.998
368.1,44.32077,-613.519
368.4,44.31953,-614.044
368.7,44.31827,-614.546
369,44.31703,-615.071
369.3,44.31577,-615.6
369.6,44.31453,-616.086
369.9,44.31343,-616.495
370.2,44.31234,-616.999
370.5,44.31093,-617.555
370.8,44.30968,-618.095
371.1,44.30859,-618.508
371.4,44.30749,-618.953
371.7,44.30624,-619.467
372,44.30499,-619.949
372.3,44.30375,-620.461
372.6,44.30265,-620.923
372.9,44.30140,-621.443
373.2,44.30015,-621.927
373.5,44.29890,-622.419
373.8,44.29781,-622.883
374.1,44.29656,-623.388
374.4,44.29531,-623.894
374.7,44.29406,-624.439
375,44.29281,-624.925
375.3,44.29156,-625.458
375.6,44.29030,-625.968
375.9,44.28890,-626.503
376.2,44.28765,-627.049
376.5,44.28640,-627.538
376.8,44.28515,-628.01
377.1,44.28406,-628.44
377.4,44.28265,-629
377.7,44.28140,-629.547
378,44.28015,-630.051
378.3,44.27906,-630.473
378.6,44.27765,-630.957
378.9,44.27640,-631.522
379.2,44.27515,-632.003
379.5,44.27405,-632.437
379.8,44.27265,-632.939
380.1,44.27140,-633.476
380.4,44.27015,-633.965
380.7,44.26890,-634.448
381,44.26765,-634.938
381.3,44.26624,-635.484
381.6,44.26499,-635.941
381.9,44.26374,-636.473
382.2,44.26234,-637.01
382.5,44.26109,-637.494
382.8,44.25968,-638.044
383.1,44.25843,-638.563
383.4,44.25749,-638.943
383.7,44.25624,-639.37
384,44.25484,-639.97
384.3,44.25343,-640.504
384.6,44.25234,-640.945
384.9,44.25109,-641.463
385.2,44.24984,-641.948
385.5,44.24843,-642.47
385.8,44.24734,-642.911
386.1,44.24593,-643.423
386.4,44.24468,-643.948
386.7,44.24343,-644.432
387,44.24218,-644.944
387.3,44.24077,-645.453
387.6,44.23952,-645.971
387.9,44.23812,-646.461
388.2,44.23687,-647.003
388.5,44.23546,-647.527
388.8,44.23421,-648.042
389.1,44.23280,-648.541
389.4,44.23156,-649.074
389.7,44.23015,-649.598
390,44.22890,-650.046
390.3,44.22765,-650.519
390.6,44.22656,-650.958
390.9,44.22515,-651.499
391.2,44.22374,-652.066
391.5,44.22249,-652.482
391.8,44.22124,-652.942
392.1,44.21999,-653.42
392.4,44.21875,-653.931
392.7,44.21734,-654.459
393,44.21609,-654.945
393.3,44.21484,-655.388
393.6,44.21359,-655.852
393.9,44.21218,-656.364
394.2,44.21093,-656.874
394.5,44.20952,-657.391
394.8,44.20812,-657.959
395.1,44.20687,-658.444
395.4,44.20546,-658.972
395.7,44.20406,-659.533
396,44.20265,-660.102
396.3,44.20140,-660.562
396.6,44.20030,-660.933
396.9,44.19859,-661.554
397.2,44.19718,-662.143
397.5,44.19609,-662.567
397.8,44.19484,-663
398.1,44.19343,-663.487
398.4,44.19202,-663.993
398.7,44.19078,-664.501
399,44.18952,-664.958
399.3,44.18812,-665.447
399.6,44.18671,-665.978
399.9,44.18531,-666.47
400.2,44.18406,-666.929
400.5,44.18265,-667.45
400.8,44.18124,-667.961
401.1,44.17984,-668.474
401.4,44.17843,-668.995
401.7,44.17718,-669.504
402,44.17577,-670.011
402.3,44.17421,-670.54
402.6,44.17296,-670.997
402.9,44.17171,-671.442
403.2,44.17031,-671.962
403.5,44.16906,-672.426
403.8,44.16765,-672.882
404.1,44.16609,-673.459
404.4,44.16468,-673.975
404.7,44.16343,-674.443
405,44.16202,-674.915
405.3,44.16062,-675.415
405.6,44.15905,-675.942
405.9,44.15765,-676.446
406.2,44.15624,-676.953
406.5,44.15468,-677.505
406.8,44.15327,-677.978
407.1,44.15187,-678.491
407.4,44.15030,-679.028
407.7,44.14890,-679.567
408,44.14734,-680.095
408.3,44.14577,-680.636
408.6,44.14437,-681.1
408.9,44.14327,-681.43
409.2,44.14156,-682.043
409.5,44.13999,-682.606
409.8,44.13874,-682.993
410.1,44.13734,-683.438
410.4,44.13593,-683.956
410.7,44.13437,-684.458
411,44.13296,-684.943
411.3,44.13155,-685.386
411.6,44.13015,-685.835
411.9,44.12874,-686.324
412.2,44.12718,-686.866
412.5,44.12562,-687.412
412.8,44.12406,-687.902
413.1,44.12249,-688.442
413.4,44.12077,-689.002
413.7,44.11921,-689.541
414,44.11765,-690.07
414.3,44.11609,-690.602
414.6,44.11453,-691.057
414.9,44.11312,-691.522
415.2,44.11156,-691.95
415.5,44.10968,-692.586
415.8,44.10828,-693.045
416.1,44.10671,-693.467
416.4,44.10515,-693.986
416.7,44.10359,-694.458
417,44.10187,-694.958
417.3,44.10031,-695.431
417.6,44.09874,-695.93
417.9,44.09702,-696.431
418.2,44.09531,-696.937
418.5,44.09374,-697.453
418.8,44.09187,-698.026
419.1,44.09015,-698.564
419.4,44.08859,-699.019
419.7,44.08718,-699.335
420,44.08531,-699.912
420.3,44.08327,-700.577
420.6,44.08171,-700.996
420.9,44.07999,-701.442
421.2,44.07828,-701.955
421.5,44.07655,-702.426
421.8,44.07468,-702.972
422.1,44.07281,-703.505
422.4,44.07093,-703.963
422.7,44.06906,-704.433
423,44.06703,-705.057
423.3,44.06515,-705.623
423.6,44.06312,-706.026
423.9,44.06109,-706.629
424.2,44.05921,-707.14
424.5,44.05718,-707.499
424.8,44.05531,-707.937
425.1,44.05328,-708.391
425.4,44.05109,-708.976
425.7,44.04905,-709.426
426,44.04702,-709.931
426.3,44.04499,-710.275
426.6,44.04281,-710.825
426.9,44.04046,-711.377
427.2,44.03796,-711.942
427.5,44.03546,-712.511
427.8,44.03280,-713.103
428.1,44.03046,-713.584
428.4,44.02796,-714.026
428.7,44.02499,-714.744
429,44.02265,-715.011
429.3,44.01999,-715.406
429.6,44.01734,-715.869
429.9,44.01452,-716.416
430.2,44.01140,-716.925
430.5,44.00812,-717.492
430.8,44.00468,-718.109
431.1,44.00140,-718.599
431.4,43.99812,-719.045
431.7,43.99468,-719.372
432,43.99078,-719.97
432.3,43.98718,-720.342
432.6,43.98265,-720.957
432.9,43.97796,-721.584
433.2,43.97312,-721.832
433.5,43.96734,-722.584
433.8,43.96171,-722.854
434.1,43.95515,-723.019
434.4,43.94484,-724.297
434.7,43.93484,-724.556
435,43.92187,-724.417
435.3,43.90109,-725.139
435.6,43.86453,-724.608
435.9,43.59499,-699.655
436.052,41.76218,-386.066